{
  "authoredOn": "2022-06-17T16:16:06Z",
  "code": {
    "coding": [
      {
        "code": "attachment-request-code",
        "system": "http://hl7.org/fhir/us/davinci-cdex/CodeSystem/cdex-temp"
      }
    ],
    "text": "Coded Attachment Request"
  },
  "contained": [
    {
      "birthDate": "1987-02-20",
      "id": "patient",
      "identifier": [
        {
          "system": "http://example.org/cdex/payer/member-ids",
          "type": {
            "coding": [
              {
                "code": "MB",
                "display": "Member Number",
                "system": "http://terminology.hl7.org/CodeSystem/v2-0203"
              }
            ],
            "text": "Member Number"
          },
          "use": "usual",
          "value": "Member123"
        }
      ],
      "name": [
        {
          "family": "Shaw",
          "given": [
            "Amy"
          ]
        }
      ],
      "resourceType": "Patient"
    },
    {
      "id": "practitionerrole",
      "organization": {
        "identifier": {
          "system": "http://hl7.org/fhir/sid/us-npi",
          "value": "1234567893"
        }
      },
      "practitioner": {
        "identifier": {
          "system": "http://hl7.org/fhir/sid/us-npi",
          "value": "9941339100"
        }
      },
      "resourceType": "PractitionerRole"
    }
  ],
  "for": {
    "reference": "#patient"
  },
  "id": "inline-example19",
  "identifier": [
    {
      "system": "http://example.org/payer",
      "type": {
        "coding": [
          {
            "code": "tracking-id",
            "display": "Tracking Id",
            "system": "http://hl7.org/fhir/us/davinci-cdex/CodeSystem/cdex-temp"
          }
        ],
        "text": "Re-Association Tracking Control Number"
      },
      "value": "trackingid123"
    }
  ],
  "input": [
    {
      "extension": [
        {
          "url": "http://hl7.org/fhir/us/davinci-pas/StructureDefinition/extension-paLineNumber",
          "valueInteger": 1
        }
      ],
      "type": {
        "coding": [
          {
            "code": "data-code",
            "system": "http://hl7.org/fhir/us/davinci-hrex/CodeSystem/hrex-temp"
          }
        ]
      },
      "valueCodeableConcept": {
        "coding": [
          {
            "code": "11506-3",
            "display": "Progress note",
            "system": "http://loinc.org"
          }
        ],
        "text": "Progress note"
      }
    },
    {
      "type": {
        "coding": [
          {
            "code": "signature-flag",
            "system": "http://hl7.org/fhir/us/davinci-cdex/CodeSystem/cdex-temp"
          }
        ]
      },
      "valueBoolean": true
    },
    {
      "type": {
        "coding": [
          {
            "code": "payer-url",
            "system": "http://hl7.org/fhir/us/davinci-cdex/CodeSystem/cdex-temp"
          }
        ]
      },
      "valueUrl": "http://example.org/cdex/payer/$submit-attachment"
    },
    {
      "type": {
        "coding": [
          {
            "code": "service-date",
            "system": "http://hl7.org/fhir/us/davinci-cdex/CodeSystem/cdex-temp"
          }
        ]
      },
      "valueDate": "2022-06-13"
    },
    {
      "type": {
        "coding": [
          {
            "code": "purpose-of-use",
            "system": "http://hl7.org/fhir/us/davinci-cdex/CodeSystem/cdex-temp"
          }
        ]
      },
      "valueCodeableConcept": {
        "coding": [
          {
            "code": "CLMATTCH",
            "display": "claim attachment",
            "system": "http://terminology.hl7.org/CodeSystem/v3-ActReason"
          }
        ]
      }
    }
  ],
  "intent": "order",
  "lastModified": "2022-06-17T16:16:06Z",
  "owner": {
    "reference": "#practitionerrole"
  },
  "reasonCode": {
    "coding": [
      {
        "code": "claim",
        "display": "Claim",
        "system": "http://hl7.org/fhir/claim-use"
      }
    ],
    "text": "claim"
  },
  "reasonReference": {
    "identifier": {
      "system": "http://example.org/cdex/payer/claim-ids",
      "value": "Claim123"
    }
  },
  "requester": {
    "identifier": {
      "system": "http://example.org/cdex/payer/payer-ids",
      "value": "Payer123"
    }
  },
  "resourceType": "Task",
  "restriction": {
    "period": {
      "end": "2022-06-21"
    }
  },
  "status": "requested"
}
