<?xml version="1.0" encoding="UTF-8"?><ImplementationGuide xmlns="http://hl7.org/fhir"><id value="davinci-cdex"/><meta><versionId value="5"/><lastUpdated value="2019-02-19T10:02:24.656-05:00"/></meta><contained><Binary><id value="8489"/><contentType value="text/markdown"/><data value=""/></Binary></contained><contained><Binary><id value="8890"/><contentType value="text/markdown"/><data value=""/></Binary></contained><url value="http://hl7.org/fhir/us/davinci-hrex/ImplementationGuide/davinci-cdex"/><version value="0.0.1"/><name value="Da Vinci Clinical Data Exchange"/><status value="draft"/><fhirVersion value="4.0.0"/><definition><page><extension url="https://trifolia-on-fhir.lantanagroup.com/StructureDefinition/extension-ig-page-auto-generate-toc"><valueBoolean value="true"/></extension><nameUrl value="toc.md"/><title value="Table of Contents"/><generation value="generated"/><page><nameReference><reference value="#8489"/><display value="Page content 8489"/></nameReference><title value="Use Case Scenarios"/><generation value="markdown"/></page><page><nameReference><reference value="#8890"/><display value="Page content 8890"/></nameReference><title value="CDex Profiles and Extensions"/><generation value="markdown"/></page></page></definition></ImplementationGuide>