<?xml version="1.0" encoding="UTF-8"?><ImplementationGuide xmlns="http://hl7.org/fhir"><id value="davinci-cdex"/><meta><versionId value="50"/><lastUpdated value="2019-03-01T14:41:48.000-05:00"/></meta><contained><Binary><id value="9211"/><contentType value="text/markdown"/><data value=""/></Binary></contained><contained><Binary><id value="5729"/><contentType value="text/markdown"/><data value=""/></Binary></contained><contained><Binary><id value="8175"/><contentType value="text/markdown"/><data value=""/></Binary></contained><contained><Binary><id value="6414"/><contentType value="text/markdown"/><data value=""/></Binary></contained><contained><Binary><id value="7544"/><contentType value="text/markdown"/><data value=""/></Binary></contained><contained><Binary><id value="9798"/><contentType value="text/markdown"/><data value=""/></Binary></contained><contained><Binary><id value="8576"/><contentType value="text/markdown"/><data value="Tm8gcGFnZSBjb250ZW50IHlldA=="/></Binary></contained><contained><Binary><id value="5059"/><contentType value="text/markdown"/><data value=""/></Binary></contained><contained><Binary><id value="8913"/><contentType value="text/markdown"/><data value="Tm8gcGFnZSBjb250ZW50IHlldA=="/></Binary></contained><contained><Binary><id value="8187"/><contentType value="text/markdown"/><data value="Tm8gcGFnZSBjb250ZW50IHlldA=="/></Binary></contained><contained><Binary><id value="9223"/><contentType value="text/markdown"/><data value="Tm8gcGFnZSBjb250ZW50IHlldA=="/></Binary></contained><contained><Binary><id value="9280"/><contentType value="text/markdown"/><data value="Tm8gcGFnZSBjb250ZW50IHlldA=="/></Binary></contained><contained><Binary><id value="8867"/><contentType value="text/markdown"/><data value="Tm8gcGFnZSBjb250ZW50IHlldA=="/></Binary></contained><contained><Binary><id value="8489"/><contentType value="text/markdown"/><data value=""/></Binary></contained><contained><Binary><id value="8541"/><contentType value="text/markdown"/><data value=""/></Binary></contained><contained><Binary><id value="8779"/><contentType value="text/markdown"/><data value=""/></Binary></contained><contained><Binary><id value="5942"/><contentType value="text/markdown"/><data value=""/></Binary></contained><contained><Binary><id value="5744"/><contentType value="text/markdown"/><data value=""/></Binary></contained><contained><Binary><id value="7401"/><contentType value="text/markdown"/><data value=""/></Binary></contained><contained><Binary><id value="7033"/><contentType value="text/markdown"/><data value=""/></Binary></contained><contained><Binary><id value="6128"/><contentType value="text/markdown"/><data value=""/></Binary></contained><contained><Binary><id value="8611"/><contentType value="text/markdown"/><data value="Tm8gcGFnZSBjb250ZW50IHlldA=="/></Binary></contained><contained><Binary><id value="9102"/><contentType value="text/markdown"/><data value="Tm8gcGFnZSBjb250ZW50IHlldA=="/></Binary></contained><contained><Binary><id value="6394"/><contentType value="text/markdown"/><data value="Tm8gcGFnZSBjb250ZW50IHlldA=="/></Binary></contained><contained><Binary><id value="8890"/><contentType value="text/markdown"/><data value=""/></Binary></contained><contained><Binary><id value="9302"/><contentType value="text/markdown"/><data value="Tm8gcGFnZSBjb250ZW50IHlldA=="/></Binary></contained><contained><Binary><id value="9037"/><contentType value="text/markdown"/><data value="Tm8gcGFnZSBjb250ZW50IHlldA=="/></Binary></contained><contained><Binary><id value="8584"/><contentType value="text/markdown"/><data value="Tm8gcGFnZSBjb250ZW50IHlldA=="/></Binary></contained><contained><Binary><id value="6250"/><contentType value="text/markdown"/><data value="Tm8gcGFnZSBjb250ZW50IHlldA=="/></Binary></contained><contained><Binary><id value="7327"/><contentType value="text/markdown"/><data value="Tm8gcGFnZSBjb250ZW50IHlldA=="/></Binary></contained><contained><Binary><id value="8726"/><contentType value="text/markdown"/><data value="Tm8gcGFnZSBjb250ZW50IHlldA=="/></Binary></contained><contained><Binary><id value="6016"/><contentType value="text/markdown"/><data value="Tm8gcGFnZSBjb250ZW50IHlldA=="/></Binary></contained><contained><Binary><id value="6472"/><contentType value="text/markdown"/><data value="Tm8gcGFnZSBjb250ZW50IHlldA=="/></Binary></contained><contained><Binary><id value="7004"/><contentType value="text/markdown"/><data value="Tm8gcGFnZSBjb250ZW50IHlldA=="/></Binary></contained><contained><Binary><id value="9755"/><contentType value="text/markdown"/><data value="Tm8gcGFnZSBjb250ZW50IHlldA=="/></Binary></contained><contained><Binary><id value="6638"/><contentType value="text/markdown"/><data value="Tm8gcGFnZSBjb250ZW50IHlldA=="/></Binary></contained><contained><Binary><id value="9848"/><contentType value="text/markdown"/><data value="T3V0IG9mIFNjb3BlIGZvciBNYXkgMjAxOSBCYWxsb3Qu"/></Binary></contained><contained><Binary><id value="8684"/><contentType value="text/markdown"/><data value="T3V0IG9mIHNjb3BlIGZvciBNYXkgMjAxOSBCYWxsb3Qu"/></Binary></contained><contained><Binary><id value="8929"/><contentType value="text/markdown"/><data value="T3V0IG9mIHNjb3BlIGZvciBNYXkgMjAxOSBiYWxsb3Qu"/></Binary></contained><contained><Binary><id value="9923"/><contentType value="text/markdown"/><data value="Tm8gcGFnZSBjb250ZW50IHlldA=="/></Binary></contained><extension url="https://trifolia-fhir.lantanagroup.com/stu3/StructureDefinition/github-branch"><valueString value="master"/></extension><extension url="https://trifolia-fhir.lantanagroup.com/stu3/StructureDefinition/github-path"><valueString value="HL7/davinci-ecdx/source/resources/implementationguide/davinci-cdex.xml"/></extension><url value="http://hl7.org/fhir/us/davinci-hrex/ImplementationGuide/davinci-cdex"/><version value="0.0.1"/><name value="Da Vinci Clinical Data Exchange"/><status value="draft"/><description value="The Clinical Data exchange (CDex) is part of the larger Da Vinci use case for Health Record exchange (HRex).&#xA;&#xA;After careful evaluation, the eHRx project was decomposed into four independent efforts (and tied to 4 separate PSSs). The exchange of Quality Measures was included in the existing work on the Data Exchange for Quality Measures (DEQM) that is sponsored by the CQI workgroup. The exchange of Payer Data (PDex) is sponsored by Financial Management. The overall HRex Framework is planned to be sponsored by the Clinical Interoperability Council (CIC) and we looking to a combination of Structured Documents, Patient Care and Attachments to sponsor the work on e Clinical Data exchange (CDex).&#xA;&#xA;The scope of the CDex project is to defined combinations of exchange methods (push, pull, subscribe, CDS Hooks, ), specific payloads (Documents, Bundles, and Individual Resources), search criteria, conformance, provenance, and other relevant requirements to support specific exchanges of clinical information between provider and other providers and/or payers. The goal is to identify, document and constrain very specific patterns of exchange so that providers and payers can reliably exchange information for patient care (including coordination of care), risk adjustment, quality reporting, identifying that requested services are necessary and appropriate (e.g. should be covered by the payer) and other uses that may be documented as part of this effort. Clinical data payloads will include C-CDA, C-CDA on FHIR, compositions, bundles, specific resources, and bulk data exchange. This list is intended to be illustrative and not prescriptive.&#xA;&#xA;This project will reference, where possible the &quot;standards&quot; defined by the Health Record exchange (HRex) Framework Implementation Guide which in turn will utilize prior work from Argonaut, US Core and QI Core effort for FHIR DSTU2, STU3, and R4. &#xA;&#xA;The ultimate goal is to support the exchange of provider data on specific patients/members for better patient care with other providers and payers using technology that support FHIR DSTU2, STU3, and R4 releases of the FHIR standard.&#xA;&#xA;The project team plans to work with existing FHIR artifacts where possible. If changes are necessary, the project team will work with the responsible Work Group to review and implement (via tracker items or new PSS) any necessary enhancements to base FHIR resources, extensions, and/or profiles.&#xA;&#xA;This implementation guide depends on &lt;a href=&quot;../davinci-ehrx&quot;&gt;Da Vinci HRex&lt;/a&gt;. Please see that guide for more info. &#xA;&#xA;"/><packageId value="hl7.fhir.us.davinci-cdex"/><fhirVersion value="4.0.0"/><definition><resource><reference><reference value="StructureDefinition/cdex-collection-bundle"/><display value="CDex Collection Bundle"/></reference></resource><resource><reference><reference value="StructureDefinition/cdex-communication"/><display value="CDex Communication"/></reference></resource><resource><reference><reference value="StructureDefinition/cdex-communicationrequest"/><display value="CDex CommunicationRequest"/></reference></resource><resource><reference><reference value="StructureDefinition/cdex-document-bundle"/><display value="CDex Document Bundle"/></reference></resource><resource><reference><reference value="StructureDefinition/cdex-payload-type-code"/><display value="CDex Payload Type Code"/></reference></resource><page><extension url="https://trifolia-on-fhir.lantanagroup.com/StructureDefinition/extension-ig-page-auto-generate-toc"><valueBoolean value="true"/></extension><nameUrl value="toc.md"/><title value="Table of Contents"/><generation value="generated"/><page><nameReference><reference value="#9211"/><display value="Page content 9211"/></nameReference><title value="Home"/><generation value="markdown"/><page><nameReference><reference value="#5729"/><display value="Page content 5729"/></nameReference><title value="Overview"/><generation value="markdown"/></page></page><page><nameReference><reference value="#8175"/><display value="Page content 8175"/></nameReference><title value="Introduction"/><generation value="markdown"/><page><nameReference><reference value="#6414"/><display value="Page content 6414"/></nameReference><title value="About FHIR"/><generation value="markdown"/></page><page><nameReference><reference value="#7544"/><display value="Page content 7544"/></nameReference><title value="About this Implementation Guide--Content and Organization"/><generation value="markdown"/></page><page><nameReference><reference value="#9798"/><display value="Page content 9798"/></nameReference><title value="About Supporting Specifications"/><generation value="markdown"/></page><page><nameReference><reference value="#8576"/><display value="Page content 8576"/></nameReference><title value="About Payload Types"/><generation value="markdown"/></page><page><nameReference><reference value="#5059"/><display value="Page content 5059"/></nameReference><title value="Understanding C-CDA and C-CDA on FHIR"/><generation value="markdown"/></page><page><nameReference><reference value="#8913"/><display value="Page content 8913"/></nameReference><title value="URLs URIs and OIDs"/><generation value="markdown"/></page><page><nameReference><reference value="#8187"/><display value="Page content 8187"/></nameReference><title value="Structured and Unstructured Documents"/><generation value="markdown"/></page><page><nameReference><reference value="#9223"/><display value="Page content 9223"/></nameReference><title value="Base64 Encoded Content"/><generation value="markdown"/></page><page><nameReference><reference value="#9280"/><display value="Page content 9280"/></nameReference><title value="Versioning Mechanisms"/><generation value="markdown"/></page><page><nameReference><reference value="#8867"/><display value="Page content 8867"/></nameReference><title value="Code Systems - Value Sets - Request Codes and Response Codes"/><generation value="markdown"/></page></page><page><nameReference><reference value="#8489"/><display value="Page content 8489"/></nameReference><title value="Use Case Scenarios"/><generation value="markdown"/><page><nameReference><reference value="#8541"/><display value="Page content 8541"/></nameReference><title value="CDex Improve Care Coordination"/><generation value="markdown"/></page><page><nameReference><reference value="#8779"/><display value="Page content 8779"/></nameReference><title value="CDex Build Accurate Risk Profiles"/><generation value="markdown"/></page><page><nameReference><reference value="#5942"/><display value="Page content 5942"/></nameReference><title value="CDex Support Quality Management"/><generation value="markdown"/></page><page><nameReference><reference value="#5744"/><display value="Page content 5744"/></nameReference><title value="CDex Confirm Medical Necessity"/><generation value="markdown"/></page><page><nameReference><reference value="#7401"/><display value="Page content 7401"/></nameReference><title value="CDex Improve Member Experience"/><generation value="markdown"/></page><page><nameReference><reference value="#7033"/><display value="Page content 7033"/></nameReference><title value="CDex Track Referrals and Orders"/><generation value="markdown"/></page><page><nameReference><reference value="#6128"/><display value="Page content 6128"/></nameReference><title value="Information Exchange Option 1  Push--POST and PUT"/><generation value="markdown"/></page><page><nameReference><reference value="#8611"/><display value="Page content 8611"/></nameReference><title value="Information Exchange Option 2  Push--Unsolicited Communication"/><generation value="markdown"/></page><page><nameReference><reference value="#9102"/><display value="Page content 9102"/></nameReference><title value="Information Exchange Option 3  Pull--GET"/><generation value="markdown"/></page><page><nameReference><reference value="#6394"/><display value="Page content 6394"/></nameReference><title value="Information Exchange Option 4  Request--Solicited Communication"/><generation value="markdown"/></page></page><page><nameReference><reference value="#8890"/><display value="Page content 8890"/></nameReference><title value="CDex Profiles and Extensions"/><generation value="markdown"/><page><nameReference><reference value="#9302"/><display value="Page content 9302"/></nameReference><title value="US Core STU3 (FHIR R4) Profiles"/><generation value="markdown"/></page><page><nameReference><reference value="#9037"/><display value="Page content 9037"/></nameReference><title value="HRex Profiles"/><generation value="markdown"/><page><nameReference><reference value="#8584"/><display value="Page content 8584"/></nameReference><title value="HRex Profiles for FHIR DSTU2"/><generation value="markdown"/></page></page><page><nameReference><reference value="#6250"/><display value="Page content 6250"/></nameReference><title value="US Core STU 2 (FHIR STU3) Profiles"/><generation value="markdown"/></page><page><nameReference><reference value="#7327"/><display value="Page content 7327"/></nameReference><title value="Argonaut FHIR (DSTU2) Profiles"/><generation value="markdown"/></page><page><nameReference><reference value="#8726"/><display value="Page content 8726"/></nameReference><title value="Extensions"/><generation value="markdown"/></page></page><page><nameReference><reference value="#6016"/><display value="Page content 6016"/></nameReference><title value="Information Exchange Interactions"/><generation value="markdown"/><page><nameReference><reference value="#6472"/><display value="Page content 6472"/></nameReference><title value="Push (POST and PUT)"/><generation value="markdown"/></page><page><nameReference><reference value="#7004"/><display value="Page content 7004"/></nameReference><title value="Push (Unsolicited Communication)"/><generation value="markdown"/></page><page><nameReference><reference value="#9755"/><display value="Page content 9755"/></nameReference><title value="Pull (GET)"/><generation value="markdown"/></page><page><nameReference><reference value="#6638"/><display value="Page content 6638"/></nameReference><title value="Request (Solicited Communication)"/><generation value="markdown"/></page><page><nameReference><reference value="#9848"/><display value="Page content 9848"/></nameReference><title value="Subscribe"/><generation value="markdown"/></page><page><nameReference><reference value="#8684"/><display value="Page content 8684"/></nameReference><title value="Bulk Data"/><generation value="markdown"/></page></page><page><nameReference><reference value="#8929"/><display value="Page content 8929"/></nameReference><title value="CDS-Hooks"/><generation value="markdown"/></page><page><nameReference><reference value="#9923"/><display value="Page content 9923"/></nameReference><title value="Credits"/><generation value="markdown"/></page></page></definition></ImplementationGuide>