{
    "resourceType": "Task",
    "id": "cdex-task-example25",
    "meta": {
        "extension": [
            {
                "url": "http://hl7.org/fhir/StructureDefinition/instance-name",
                "valueString": "CDex Task Example 25"
            },
            {
                "url": "http://hl7.org/fhir/StructureDefinition/instance-description",
                "valueMarkdown": "**Completed Request for Additional Data Using an Adaptive Questionnaire:**  Completed Task for CDex Task Example 23. This example has a status of \"completed\" and a \"lastModified\" date of 6/17/2022. The \"reasonCode\" is \"request additional data\" and the \"output\" is a QuestionnaireResponse."
            }
        ],
        "profile": [
            "http://hl7.org/fhir/us/davinci-cdex/StructureDefinition/cdex-task-attachment-request"
        ]
    },
    "contained": [
        {
            "resourceType": "Patient",
            "id": "patient",
            "meta": {
                "profile": [
                    "http://hl7.org/fhir/us/davinci-cdex/StructureDefinition/cdex-patient-demographics"
                ]
            },
            "identifier": [
                {
                    "use": "usual",
                    "type": {
                        "coding": [
                            {
                                "system": "http://hl7.org/fhir/us/davinci-hrex/CodeSystem/hrex-temp",
                                "code": "UMB",
                                "display": "Member Number"
                            }
                        ],
                        "text": "Member Number"
                    },
                    "system": "http://example.org/cdex/payer/member-ids",
                    "value": "Member123"
                },
                {
                    "use": "usual",
                    "type": {
                        "coding": [
                            {
                                "system": "http://hl7.org/fhir/us/carin-bb/CodeSystem/C4BBIdentifierType",
                                "code": "pat",
                                "display": "Patient Account Number"
                            }
                        ],
                        "text": "Patient Account Number"
                    },
                    "system": "http://example.org/cdex/provider/patient-ids",
                    "value": "PA-123"
                }
            ],
            "name": [
                {
                    "family": "Shaw",
                    "given": [
                        "Amy"
                    ]
                }
            ],
            "birthDate": "1987-02-20"
        },
        {
            "resourceType": "PractitionerRole",
            "id": "practitionerrole",
            "meta": {
                "profile": [
                    "http://hl7.org/fhir/us/davinci-cdex/StructureDefinition/cdex-practitionerrole"
                ]
            },
            "practitioner": {
                "identifier": {
                    "system": "http://hl7.org/fhir/sid/us-npi",
                    "value": "9941339100"
                }
            },
            "organization": {
                "identifier": {
                    "system": "http://hl7.org/fhir/sid/us-npi",
                    "value": "1234567893"
                }
            }
        }
    ],
    "identifier": [
        {
            "type": {
                "coding": [
                    {
                        "system": "http://hl7.org/fhir/us/davinci-cdex/CodeSystem/cdex-temp",
                        "code": "tracking-id",
                        "display": "Tracking Id"
                    }
                ],
                "text": "Re-Association Tracking Control Number"
            },
            "system": "http://example.org/payer",
            "value": "trackingid1034"
        }
    ],
    "status": "completed",
    "intent": "order",
    "code": {
        "coding": [
            {
                "system": "http://hl7.org/fhir/us/davinci-cdex/CodeSystem/cdex-temp",
                "code": "attachment-request-questionnaire"
            }
        ],
        "text": "Attachment Request Questionnaire"
    },
    "for": {
        "reference": "#patient"
    },
    "authoredOn": "2022-06-17T16:16:06Z",
    "lastModified": "2022-06-18T16:46:06Z",
    "requester": {
        "identifier": {
            "system": "http://example.org/cdex/payer/payer-ids",
            "value": "Payer123"
        }
    },
    "owner": {
        "reference": "#practitionerrole"
    },
    "reasonCode": {
        "coding": [
            {
                "system": "http://hl7.org/fhir/claim-use",
                "code": "preauthorization",
                "display": "Preauthorization"
            }
        ],
        "text": "preauthorization"
    },
    "reasonReference": {
        "identifier": {
            "system": "http://example.org/cdex/payer/claim-ids",
            "value": "Preauth123"
        }
    },
    "restriction": {
        "period": {
            "end": "2022-06-21"
        }
    },
    "input": [
        {
            "type": {
                "coding": [
                    {
                        "system": "http://hl7.org/fhir/uv/sdc/CodeSystem/temp",
                        "code": "questionnaire"
                    }
                ]
            },
            "extension": [
                {
                    "url": "http://hl7.org/fhir/us/davinci-pas/StructureDefinition/extension-serviceLineNumber",
                    "valuePositiveInt": 1
                }
            ],
            "valueCanonical": "http://example.org/base_adaptive_questionnaire"
        },
        {
            "type": {
                "coding": [
                    {
                        "system": "http://hl7.org/fhir/us/davinci-cdex/CodeSystem/cdex-temp",
                        "code": "signature-flag"
                    }
                ]
            },
            "valueBoolean": true
        },
        {
            "type": {
                "coding": [
                    {
                        "system": "http://hl7.org/fhir/us/davinci-cdex/CodeSystem/cdex-temp",
                        "code": "payer-url"
                    }
                ]
            },
            "valueUrl": "http://example.org/cdex/payer/$submit-attachment"
        },
        {
            "type": {
                "coding": [
                    {
                        "code": "purpose-of-use",
                        "system": "http://hl7.org/fhir/us/davinci-cdex/CodeSystem/cdex-temp"
                    }
                ]
            },
            "valueCodeableConcept": {
                "coding": [
                    {
                        "code": "COVAUTH",
                        "system": "http://terminology.hl7.org/CodeSystem/v3-ActReason",
                        "display": "coverage authorization"
                    }
                ]
            }
        }
    ],
    "output": [
        {
            "type": {
                "coding": [
                    {
                        "system": "http://hl7.org/fhir/uv/sdc/CodeSystem/temp",
                        "code": "questionnaire-response"
                    }
                ]
            },
            "valueReference": {
                "reference": "QuestionnaireResponse/cdex-questionnaireresponse-example2"
            }
        }
    ]
}