{
  "resourceType": "Parameters",
  "id": "cdex-parameters-example2",
  "parameter": [
    {
      "name": "TrackingId",
      "valueIdentifier": {
        "system": "http://example.org/provider",
        "value": "21234657"
      }
    },
    {
      "name": "AttachTo",
      "valueCode": "claim"
    },
    {
      "name": "PayerId",
      "valueIdentifier": {
        "system": "http://example.org/cdex/payer-ids",
        "value": "payer123"
      }
    },
    {
      "name": "OrganizationId",
      "valueIdentifier": {
        "system": "http://hl7.org/fhir/sid/us-npi",
        "value": "1407071236"
      }
    },
    {
      "name": "ProviderId",
      "valueIdentifier": {
        "system": "http://hl7.org/fhir/sid/us-npi",
        "value": "9941339108"
      }
    },
    {
      "name": "MemberId",
      "valueIdentifier": {
        "system": "http://example.org/cdex/member-ids",
        "value": "234567"
      }
    },
    {
      "name": "ServiceDate",
      "valueDateTime": "2022-06-16"
    },
    {
      "name": "Attachment",
      "part": [
        {
          "name": "LineItem",
          "valueString": "1"
        },
        {
          "name": "Code",
          "valueCodeableConcept": {
            "coding": [
              {
                "system": "http://loinc.org",
                "code": "11503-0",
                "display": "Medical records"
              }
            ],
            "text": "Medical records"
          }
        },
        {
          "name": "Content",
          "resource": {
            "resourceType": "Bundle",
            "id": "cdex-document-digital-sig-example",
            "identifier": {
              "system": "urn:ietf:rfc:3986",
              "value": "urn:uuid:c173535e-135e-48e3-ab64-38bacc68dba8"
            },
            "type": "document",
            "timestamp": "2021-10-25T20:16:29-07:00",
            "entry": [
              {
                "fullUrl": "urn:uuid:17a80a8d-4cf1-4deb-a1fd-2db1130e5f76",
                "resource": {
                  "resourceType": "Composition",
                  "id": "17a80a8d-4cf1-4deb-a1fd-2db1130e5f76",
                  "text": {
                    "status": "generated",
                    "div": "<div xmlns=\"http://www.w3.org/1999/xhtml\"><a name=\"Composition_17a80a8d-4cf1-4deb-a1fd-2db1130e5f76\"> </a><p><b>Generated Narrative: Composition</b><a name=\"17a80a8d-4cf1-4deb-a1fd-2db1130e5f76\"> </a><a name=\"hc17a80a8d-4cf1-4deb-a1fd-2db1130e5f76\"> </a></p><div style=\"display: inline-block; background-color: #d9e0e7; padding: 6px; margin: 4px; border: 1px solid #8da1b4; border-radius: 5px; line-height: 60%\"><p style=\"margin-bottom: 0px\">Resource Composition &quot;17a80a8d-4cf1-4deb-a1fd-2db1130e5f76&quot; </p></div><p><b>status</b>: final</p><p><b>type</b>: Medical records <span style=\"background: LightGoldenRodYellow; margin: 4px; border: 1px solid khaki\"> (<a href=\"https://loinc.org/\">LOINC</a>#11503-0)</span></p><p><b>encounter</b>: See on this page: urn:uuid:5ce5c83a-000f-47d2-941c-039358cc9112: Example Encounter</p><p><b>date</b>: 2021-10-25 20:16:29-0700</p><p><b>author</b>: See on this page: urn:uuid:0820c16d-91de-4dfa-a3a6-f140a516a9bc: Example Practitioner</p><p><b>title</b>: Active Conditions</p><h3>Attesters</h3><table class=\"grid\"><tr><td style=\"display: none\">-</td><td><b>Mode</b></td><td><b>Time</b></td><td><b>Party</b></td></tr><tr><td style=\"display: none\">*</td><td>legal</td><td>2021-10-25 20:16:29-0700</td><td>See on this page: urn:uuid:0820c16d-91de-4dfa-a3a6-f140a516a9bc: Example Practitioner</td></tr></table></div>"
                  },
                  "status": "final",
                  "type": {
                    "coding": [
                      {
                        "system": "http://loinc.org",
                        "code": "11503-0"
                      }
                    ],
                    "text": "Medical records"
                  },
                  "subject": {
                    "reference": "urn:uuid:970af6c9-5bbd-4067-b6c1-d9b2c823aece",
                    "display": "Example Patient"
                  },
                  "encounter": {
                    "reference": "urn:uuid:5ce5c83a-000f-47d2-941c-039358cc9112",
                    "display": "Example Encounter"
                  },
                  "date": "2021-10-25T20:16:29-07:00",
                  "author": [
                    {
                      "reference": "urn:uuid:0820c16d-91de-4dfa-a3a6-f140a516a9bc",
                      "display": "Example Practitioner"
                    }
                  ],
                  "title": "Active Conditions",
                  "attester": [
                    {
                      "mode": "legal",
                      "time": "2021-10-25T20:16:29-07:00",
                      "party": {
                        "reference": "urn:uuid:0820c16d-91de-4dfa-a3a6-f140a516a9bc",
                        "display": "Example Practitioner"
                      }
                    }
                  ],
                  "section": [
                    {
                      "title": "Active Condition 1",
                      "entry": [
                        {
                          "reference": "urn:uuid:014a68ec-d691-49e0-b980-91b0d924e570"
                        }
                      ]
                    }
                  ]
                }
              },
              {
                "fullUrl": "urn:uuid:0820c16d-91de-4dfa-a3a6-f140a516a9bc",
                "resource": {
                  "resourceType": "Practitioner",
                  "id": "0820c16d-91de-4dfa-a3a6-f140a516a9bc",
                  "meta": {
                    "lastUpdated": "2013-05-05T16:13:03Z"
                  },
                  "text": {
                    "status": "generated",
                    "div": "<div xmlns=\"http://www.w3.org/1999/xhtml\"><a name=\"Practitioner_0820c16d-91de-4dfa-a3a6-f140a516a9bc\"> </a><p><b>Generated Narrative: Practitioner</b><a name=\"0820c16d-91de-4dfa-a3a6-f140a516a9bc\"> </a><a name=\"hc0820c16d-91de-4dfa-a3a6-f140a516a9bc\"> </a></p><div style=\"display: inline-block; background-color: #d9e0e7; padding: 6px; margin: 4px; border: 1px solid #8da1b4; border-radius: 5px; line-height: 60%\"><p style=\"margin-bottom: 0px\">Resource Practitioner &quot;0820c16d-91de-4dfa-a3a6-f140a516a9bc&quot; Updated &quot;2013-05-05 16:13:03+0000&quot; </p><p style=\"margin-bottom: 0px\">Profile: <a href=\"http://hl7.org/fhir/us/core/STU6.1/StructureDefinition-us-core-practitioner.html\">US Core Practitioner Profile (version 6.1.0)</a></p></div><p><b>identifier</b>: <a href=\"http://terminology.hl7.org/5.3.0/NamingSystem-npi.html\" title=\"National Provider Identifier\">United States National Provider Identifier</a>/9941339100</p><p><b>name</b>: John Hancock </p></div>"
                  },
                  "identifier": [
                    {
                      "system": "http://hl7.org/fhir/sid/us-npi",
                      "value": "9941339100"
                    }
                  ],
                  "name": [
                    {
                      "family": "Hancock",
                      "given": [
                        "John"
                      ]
                    }
                  ]
                }
              },
              {
                "fullUrl": "urn:uuid:970af6c9-5bbd-4067-b6c1-d9b2c823aece",
                "resource": {
                  "resourceType": "Patient",
                  "id": "970af6c9-5bbd-4067-b6c1-d9b2c823aece",
                  "text": {
                    "status": "generated",
                    "div": "<div xmlns=\"http://www.w3.org/1999/xhtml\"><a name=\"Patient_970af6c9-5bbd-4067-b6c1-d9b2c823aece\"> </a><p><b>Generated Narrative: Patient</b><a name=\"970af6c9-5bbd-4067-b6c1-d9b2c823aece\"> </a><a name=\"hc970af6c9-5bbd-4067-b6c1-d9b2c823aece\"> </a></p><div style=\"display: inline-block; background-color: #d9e0e7; padding: 6px; margin: 4px; border: 1px solid #8da1b4; border-radius: 5px; line-height: 60%\"><p style=\"margin-bottom: 0px\">Resource Patient &quot;970af6c9-5bbd-4067-b6c1-d9b2c823aece&quot; </p><p style=\"margin-bottom: 0px\">Profile: <a href=\"http://hl7.org/fhir/us/core/STU6.1/StructureDefinition-us-core-patient.html\">US Core Patient Profile (version 6.1.0)</a></p></div><p><b>identifier</b>: Member Number/Member123</p><p><b>active</b>: true</p><p><b>name</b>: CDEX Example Patient</p><p><b>gender</b>: male</p></div>"
                  },
                  "identifier": [
                    {
                      "type": {
                        "coding": [
                          {
                            "system": "http://terminology.hl7.org/CodeSystem/v2-0203",
                            "code": "MB"
                          }
                        ]
                      },
                      "system": "http://example.org/cdex/payer/member-ids",
                      "value": "Member123"
                    }
                  ],
                  "active": true,
                  "name": [
                    {
                      "text": "CDEX Example Patient",
                      "family": "Patient",
                      "given": [
                        "CDEX Example"
                      ]
                    }
                  ],
                  "gender": "male"
                }
              },
              {
                "fullUrl": "urn:uuid:014a68ec-d691-49e0-b980-91b0d924e570",
                "resource": {
                  "resourceType": "Condition",
                  "id": "014a68ec-d691-49e0-b980-91b0d924e570",
                  "text": {
                    "status": "generated",
                    "div": "<div xmlns=\"http://www.w3.org/1999/xhtml\"><a name=\"Condition_014a68ec-d691-49e0-b980-91b0d924e570\"> </a><p><b>Generated Narrative: Condition</b><a name=\"014a68ec-d691-49e0-b980-91b0d924e570\"> </a><a name=\"hc014a68ec-d691-49e0-b980-91b0d924e570\"> </a></p><div style=\"display: inline-block; background-color: #d9e0e7; padding: 6px; margin: 4px; border: 1px solid #8da1b4; border-radius: 5px; line-height: 60%\"><p style=\"margin-bottom: 0px\">Resource Condition &quot;014a68ec-d691-49e0-b980-91b0d924e570&quot; </p><p style=\"margin-bottom: 0px\">Profile: <a href=\"http://hl7.org/fhir/us/core/STU6.1/StructureDefinition-us-core-condition-problems-health-concerns.html\">US Core Condition Problems and Health Concerns Profile (version 6.1.0)</a></p></div><p><b>identifier</b>: <code>urn:oid:1.3.6.1.4.1.22812.4.111.0.4.1.2.1</code>/1</p><p><b>clinicalStatus</b>: Active <span style=\"background: LightGoldenRodYellow; margin: 4px; border: 1px solid khaki\"> (<a href=\"http://terminology.hl7.org/5.5.0/CodeSystem-condition-clinical.html\">Condition Clinical Status Codes</a>#active)</span></p><p><b>category</b>: Problem List Item <span style=\"background: LightGoldenRodYellow; margin: 4px; border: 1px solid khaki\"> (<a href=\"http://terminology.hl7.org/5.5.0/CodeSystem-condition-category.html\">Condition Category Codes</a>#problem-list-item)</span></p><p><b>code</b>: Type 2 Diabetes Mellitus <span style=\"background: LightGoldenRodYellow; margin: 4px; border: 1px solid khaki\"> (<a href=\"https://browser.ihtsdotools.org/\">SNOMED CT</a>#44054006)</span></p><p><b>subject</b>: See on this page: urn:uuid:970af6c9-5bbd-4067-b6c1-d9b2c823aece</p><p><b>onset</b>: 2006</p><p><b>asserter</b>: See on this page: urn:uuid:0820c16d-91de-4dfa-a3a6-f140a516a9bc</p></div>"
                  },
                  "identifier": [
                    {
                      "system": "urn:oid:1.3.6.1.4.1.22812.4.111.0.4.1.2.1",
                      "value": "1"
                    }
                  ],
                  "clinicalStatus": {
                    "coding": [
                      {
                        "system": "http://terminology.hl7.org/CodeSystem/condition-clinical",
                        "code": "active"
                      }
                    ]
                  },
                  "category": [
                    {
                      "coding": [
                        {
                          "system": "http://terminology.hl7.org/CodeSystem/condition-category",
                          "code": "problem-list-item",
                          "display": "Problem List Item"
                        }
                      ],
                      "text": "Problem List Item"
                    }
                  ],
                  "code": {
                    "coding": [
                      {
                        "system": "http://snomed.info/sct",
                        "code": "44054006",
                        "display": "Type 2 Diabetes Mellitus"
                      }
                    ]
                  },
                  "subject": {
                    "reference": "urn:uuid:970af6c9-5bbd-4067-b6c1-d9b2c823aece"
                  },
                  "onsetDateTime": "2006",
                  "asserter": {
                    "reference": "urn:uuid:0820c16d-91de-4dfa-a3a6-f140a516a9bc"
                  }
                }
              },
              {
                "fullUrl": "urn:uuid:5ce5c83a-000f-47d2-941c-039358cc9112",
                "resource": {
                  "resourceType": "Encounter",
                  "id": "5ce5c83a-000f-47d2-941c-039358cc9112",
                  "text": {
                    "status": "generated",
                    "div": "<div xmlns=\"http://www.w3.org/1999/xhtml\"><a name=\"Encounter_5ce5c83a-000f-47d2-941c-039358cc9112\"> </a><p><b>Generated Narrative: Encounter</b><a name=\"5ce5c83a-000f-47d2-941c-039358cc9112\"> </a><a name=\"hc5ce5c83a-000f-47d2-941c-039358cc9112\"> </a></p><div style=\"display: inline-block; background-color: #d9e0e7; padding: 6px; margin: 4px; border: 1px solid #8da1b4; border-radius: 5px; line-height: 60%\"><p style=\"margin-bottom: 0px\">Resource Encounter &quot;5ce5c83a-000f-47d2-941c-039358cc9112&quot; </p><p style=\"margin-bottom: 0px\">Profile: <a href=\"http://hl7.org/fhir/us/core/STU6.1/StructureDefinition-us-core-encounter.html\">US Core Encounter Profile (version 6.1.0)</a></p></div><p><b>status</b>: finished</p><p><b>class</b>: emergency (Details: http://terminology.hl7.org/CodeSystem/v3-ActCode code EMER = 'emergency', stated as 'null')</p><p><b>type</b>: Unknown (qualifier value) <span style=\"background: LightGoldenRodYellow; margin: 4px; border: 1px solid khaki\"> (<a href=\"https://browser.ihtsdotools.org/\">SNOMED CT</a>#261665006)</span></p><p><b>subject</b>: See on this page: urn:uuid:970af6c9-5bbd-4067-b6c1-d9b2c823aece: CDEX Example Patient</p><h3>Participants</h3><table class=\"grid\"><tr><td style=\"display: none\">-</td><td><b>Individual</b></td></tr><tr><td style=\"display: none\">*</td><td>See on this page: urn:uuid:0820c16d-91de-4dfa-a3a6-f140a516a9bc: John Hancock</td></tr></table><p><b>period</b>: 2021-10-25 20:10:29-0700 --&gt; 2021-10-25 20:16:29-0700</p><p><b>serviceProvider</b>: See on this page: urn:uuid:e37f004b-dc10-422b-b833-cdaa10a055a3: CDEX Example Organization</p></div>"
                  },
                  "status": "finished",
                  "class": {
                    "system": "http://terminology.hl7.org/CodeSystem/v3-ActCode",
                    "code": "EMER"
                  },
                  "type": [
                    {
                      "coding": [
                        {
                          "system": "http://snomed.info/sct",
                          "code": "261665006",
                          "display": "Unknown (qualifier value)"
                        }
                      ],
                      "text": "Unknown (qualifier value)"
                    }
                  ],
                  "subject": {
                    "reference": "urn:uuid:970af6c9-5bbd-4067-b6c1-d9b2c823aece",
                    "display": "CDEX Example Patient"
                  },
                  "participant": [
                    {
                      "individual": {
                        "reference": "urn:uuid:0820c16d-91de-4dfa-a3a6-f140a516a9bc",
                        "display": "John Hancock"
                      }
                    }
                  ],
                  "period": {
                    "start": "2021-10-25T20:10:29-07:00",
                    "end": "2021-10-25T20:16:29-07:00"
                  },
                  "serviceProvider": {
                    "reference": "urn:uuid:e37f004b-dc10-422b-b833-cdaa10a055a3",
                    "display": "CDEX Example Organization"
                  }
                }
              },
              {
                "fullUrl": "urn:uuid:e37f004b-dc10-422b-b833-cdaa10a055a3",
                "resource": {
                  "resourceType": "Organization",
                  "id": "e37f004b-dc10-422b-b833-cdaa10a055a3",
                  "identifier": [
                    {
                      "system": "http://hl7.org/fhir/sid/us-npi",
                      "value": "1234567893"
                    }
                  ],
                  "text": {
                    "status": "generated",
                    "div": "<div xmlns=\"http://www.w3.org/1999/xhtml\"><a name=\"Organization_e37f004b-dc10-422b-b833-cdaa10a055a3\"> </a><p><b>Generated Narrative: Organization</b><a name=\"e37f004b-dc10-422b-b833-cdaa10a055a3\"> </a><a name=\"hce37f004b-dc10-422b-b833-cdaa10a055a3\"> </a></p><div style=\"display: inline-block; background-color: #d9e0e7; padding: 6px; margin: 4px; border: 1px solid #8da1b4; border-radius: 5px; line-height: 60%\"><p style=\"margin-bottom: 0px\">Resource Organization &quot;e37f004b-dc10-422b-b833-cdaa10a055a3&quot; </p><p style=\"margin-bottom: 0px\">Profile: <a href=\"http://hl7.org/fhir/us/core/STU6.1/StructureDefinition-us-core-organization.html\">US Core Organization Profile (version 6.1.0)</a></p></div><p><b>active</b>: true</p><p><b>name</b>: CDEX Example Organization</p><p><b>telecom</b>: ph: (+1) 555-555-5555, <a href=\"mailto:customer-service@example.org\">customer-service@example.org</a></p><p><b>address</b>: 1 CDEX Lane Boston MA 01002 USA </p></div>"
                  },
                  "active": true,
                  "name": "CDEX Example Organization",
                  "telecom": [
                    {
                      "system": "phone",
                      "value": "(+1) 555-555-5555"
                    },
                    {
                      "system": "email",
                      "value": "customer-service@example.org"
                    }
                  ],
                  "address": [
                    {
                      "line": [
                        "1 CDEX Lane"
                      ],
                      "city": "Boston",
                      "state": "MA",
                      "postalCode": "01002",
                      "country": "USA"
                    }
                  ]
                }
              }
            ],
            "signature": {
              "type": [
                {
                  "system": "urn:iso-astm:E1762-95:2013",
                  "code": "1.2.840.10065.1.12.1.5",
                  "display": "Verification Signature"
                }
              ],
              "when": "2021-10-05T22:42:19-07:00",
              "who": {
                "reference": "https://example.org/Practitioner/123"
              },
              "onBehalfOf": {
                "reference": "https://example.org/Organization/123"
              },
              "data": ""
            }
          }
        }
      ]
    }
  ]
}
