{
  "id": "cdex-document-digital-sig-example",
  "entry": [
    {
      "fullUrl": "urn:uuid:17a80a8d-4cf1-4deb-a1fd-2db1130e5f76",
      "resource": {
        "attester": [
          {
            "mode": "legal",
            "party": {
              "display": "Example Practitioner",
              "reference": "urn:uuid:0820c16d-91de-4dfa-a3a6-f140a516a9bc"
            },
            "time": "2021-10-25T20:16:29-07:00"
          }
        ],
        "author": [
          {
            "display": "Example Practitioner",
            "reference": "urn:uuid:0820c16d-91de-4dfa-a3a6-f140a516a9bc"
          }
        ],
        "date": "2021-10-25T20:16:29-07:00",
        "encounter": {
          "display": "Example Encounter",
          "reference": "urn:uuid:5ce5c83a-000f-47d2-941c-039358cc9112"
        },
        "id": "17a80a8d-4cf1-4deb-a1fd-2db1130e5f76",
        "resourceType": "Composition",
        "section": [
          {
            "entry": [
              {
                "reference": "urn:uuid:014a68ec-d691-49e0-b980-91b0d924e570"
              }
            ],
            "title": "Active Condition 1"
          }
        ],
        "status": "final",
        "subject": {
          "display": "Example Patient",
          "reference": "urn:uuid:970af6c9-5bbd-4067-b6c1-d9b2c823aece"
        },
        "title": "Active Conditions",
        "type": {
          "coding": [
            {
              "code": "11503-0",
              "system": "http://loinc.org"
            }
          ],
          "text": "Medical records"
        }
      }
    },
    {
      "fullUrl": "urn:uuid:0820c16d-91de-4dfa-a3a6-f140a516a9bc",
      "resource": {
        "id": "0820c16d-91de-4dfa-a3a6-f140a516a9bc",
        "meta": {
          "lastUpdated": "2013-05-05T16:13:03Z"
        },
        "name": [
          {
            "family": "Hancock",
            "given": [
              "John"
            ]
          }
        ],
        "resourceType": "Practitioner"
      }
    },
    {
      "fullUrl": "urn:uuid:970af6c9-5bbd-4067-b6c1-d9b2c823aece",
      "resource": {
        "active": true,
        "id": "970af6c9-5bbd-4067-b6c1-d9b2c823aece",
        "name": [
          {
            "family": "Patient",
            "given": [
              "CDEX Example"
            ],
            "text": "CDEX Example Patient"
          }
        ],
        "resourceType": "Patient"
      }
    },
    {
      "fullUrl": "urn:uuid:014a68ec-d691-49e0-b980-91b0d924e570",
      "resource": {
        "asserter": {
          "reference": "urn:uuid:0820c16d-91de-4dfa-a3a6-f140a516a9bc"
        },
        "category": [
          {
            "coding": [
              {
                "code": "55607006",
                "display": "Problem",
                "system": "http://snomed.info/sct"
              },
              {
                "code": "75326-9",
                "display": "Problem",
                "system": "http://loinc.org"
              }
            ]
          }
        ],
        "clinicalStatus": {
          "coding": [
            {
              "code": "active",
              "system": "http://terminology.hl7.org/CodeSystem/condition-clinical"
            }
          ]
        },
        "code": {
          "coding": [
            {
              "code": "44054006",
              "display": "Type 2 Diabetes Mellitus",
              "system": "http://snomed.info/sct"
            }
          ]
        },
        "id": "014a68ec-d691-49e0-b980-91b0d924e570",
        "identifier": [
          {
            "system": "urn:oid:1.3.6.1.4.1.22812.4.111.0.4.1.2.1",
            "value": "1"
          }
        ],
        "onsetDateTime": "2006",
        "resourceType": "Condition",
        "subject": {
          "reference": "urn:uuid:970af6c9-5bbd-4067-b6c1-d9b2c823aece"
        }
      }
    },
    {
      "fullUrl": "urn:uuid:5ce5c83a-000f-47d2-941c-039358cc9112",
      "resource": {
        "class": {
          "code": "EMER",
          "system": "http://terminology.hl7.org/CodeSystem/v3-ActCode"
        },
        "id": "5ce5c83a-000f-47d2-941c-039358cc9112",
        "participant": [
          {
            "individual": {
              "display": "John Hancock",
              "reference": "urn:uuid:0820c16d-91de-4dfa-a3a6-f140a516a9bc"
            }
          }
        ],
        "period": {
          "end": "2021-10-25T20:16:29-07:00",
          "start": "2021-10-25T20:10:29-07:00"
        },
        "resourceType": "Encounter",
        "serviceProvider": {
          "display": "CDEX Example Organization",
          "reference": "urn:uuid:e37f004b-dc10-422b-b833-cdaa10a055a3"
        },
        "status": "finished",
        "subject": {
          "display": "CDEX Example Patient",
          "reference": "urn:uuid:970af6c9-5bbd-4067-b6c1-d9b2c823aece"
        },
        "type": [
          {
            "coding": [
              {
                "code": "261665006",
                "display": "Unknown (qualifier value)",
                "system": "http://snomed.info/sct"
              }
            ],
            "text": "Unknown (qualifier value)"
          }
        ]
      }
    },
    {
      "fullUrl": "urn:uuid:e37f004b-dc10-422b-b833-cdaa10a055a3",
      "resource": {
        "active": true,
        "address": [
          {
            "city": "Boston",
            "country": "USA",
            "line": [
              "1 CDEX Lane"
            ],
            "postalCode": "01002",
            "state": "MA"
          }
        ],
        "id": "e37f004b-dc10-422b-b833-cdaa10a055a3",
        "name": "CDEX Example Organization",
        "resourceType": "Organization",
        "telecom": [
          {
            "system": "phone",
            "value": "(+1) 555-555-5555"
          },
          {
            "system": "email",
            "value": "customer-service@example.org"
          }
        ]
      }
    }
  ],
  "identifier": {
    "system": "urn:ietf:rfc:3986",
    "value": "urn:uuid:c173535e-135e-48e3-ab64-38bacc68dba8"
  },
  "resourceType": "Bundle",
  "timestamp": "2021-10-25T20:16:29-07:00",
  "type": "document",
  "signature": {
    "type": [
      {
        "system": "urn:iso-astm:E1762-95:2013",
        "code": "1.2.840.10065.1.12.1.5",
        "display": "Verification Signature"
      }
    ],
    "when": "2021-10-05T22:42:19-07:00",
    "who": {
      "reference": "https://example.org/Practitioner/123"
    },
    "onBehalfOf": {
      "reference": "https://example.org/Organization/123"
    },
    "data": ""
  }
}
