{
    "resourceType": "Bundle",
    "id": "12521",
    "meta": {
        "versionId": "1",
        "lastUpdated": "2022-02-15T15:53:19.296Z"
    },
    "identifier": {
        "system": "urn:ietf:rfc:3986",
        "value": "urn:uuid:0c3151bd-1cbf-4d64-b04d-cd9187a4c6e0"
    },
    "type": "document",
    "timestamp": "2013-05-28T22:12:21Z",
    "entry": [
        {
            "fullUrl": "http://fhir.healthintersections.com.au/open/Composition/180f219f-97a8-486d-99d9-ed631fe4fc57",
            "resource": {
                "resourceType": "Composition",
                "id": "180f219f-97a8-486d-99d9-ed631fe4fc57",
                "meta": {
                    "lastUpdated": "2013-05-28T22:12:21Z"
                },
                "text": {
                    "status": "generated",
                    "div": "<div xmlns=\"http://www.w3.org/1999/xhtml\"><p><b>Generated Narrative with Details</b></p><p><b>id</b>: 180f219f-97a8-486d-99d9-ed631fe4fc57</p><p><b>meta</b>: </p><p><b>status</b>: final</p><p><b>type</b>: Discharge Summary from Responsible Clinician <span>(Details : {LOINC code '28655-9' = 'Physician attending Discharge summary)</span></p><p><b>encounter</b>: <a>urn:uuid:a16719d5-5267-4f69-913a-f29e4b800a14</a></p><p><b>date</b>: 01/02/2013 12:30:02 PM</p><p><b>author</b>: <a>Doctor Dave</a></p><p><b>title</b>: Discharge Summary</p><p><b>confidentiality</b>: N</p></div>"
                },
                "status": "final",
                "type": {
                    "coding": [
                        {
                            "system": "http://loinc.org",
                            "code": "28655-9"
                        }
                    ],
                    "text":                     "Discharge Summary from Responsible Clinician"
                },
                "subject": {
                    "reference": "urn:uuid:d546d85-2487-4ae5-a7b2-f7fa79811120",
                    "display": "Eve Everywoman"
                },
                "encounter": {
                    "reference": "urn:uuid:a16719d5-5267-4f69-913a-f29e4b800a14"
                },
                "date": "2013-02-01T12:30:02Z",
                "author": [
                    {
                        "reference": "urn:uuid:0ece729a-5a9f-412e-ad70-cf8da711098c",
                        "display": "Doctor Dave"
                    }
                ],
                "title": "Discharge Summary",
                "confidentiality": "N",
                "section": [
                    {
                        "title": "Reason for admission",
                        "code": {
                            "coding": [
                                {
                                    "system": "http://loinc.org",
                                    "code": "29299-5",
                                    "display": "Reason for visit Narrative"
                                }
                            ]
                        },
                        "text": {
                            "status": "additional",
                            "div": "<div xmlns=\"http://www.w3.org/1999/xhtml\">\n\n              <table>\n\n                <thead>\n\n                  <tr>\n\n                    <td>Details</td>\n\n                    <td/>\n\n                  </tr>\n\n                </thead>\n\n                <tbody>\n\n                  <tr>\n\n                    <td>Acute Asthmatic attack. Was wheezing for days prior to admission.</td>\n\n                    <td/>\n\n                  </tr>\n\n                </tbody>\n\n              </table>\n\n            </div>"
                        },
                        "entry": [
                            {
                                "reference": "urn:uuid:541a72a8-df75-4484-ac89-ac4923f03b81"
                            }
                        ]
                    },
                    {
                        "title": "Medications on Discharge",
                        "code": {
                            "coding": [
                                {
                                    "system": "http://loinc.org",
                                    "code": "10183-2",
                                    "display": "Hospital discharge medications Narrative"
                                }
                            ]
                        },
                        "text": {
                            "status": "additional",
                            "div": "<div xmlns=\"http://www.w3.org/1999/xhtml\">\n\n              <table>\n\n                <thead>\n\n                  <tr>\n\n                    <td>Medication</td>\n\n                    <td>Last Change</td>\n\n                    <td>Last ChangeReason</td>\n\n                  </tr>\n\n                </thead>\n\n                <tbody>\n\n                  <tr>\n\n                    <td>Theophylline 200mg BD after meals</td>\n\n                    <td>continued</td>\n\n                  </tr>\n\n                  <tr>\n\n                    <td>Ventolin Inhaler</td>\n\n                    <td>stopped</td>\n\n                    <td>Getting side effect of tremor</td>\n\n                  </tr>\n\n                </tbody>\n\n              </table>\n\n            </div>"
                        },
                        "mode": "working",
                        "entry": [
                            {
                                "reference": "urn:uuid:124a6916-5d84-4b8c-b250-10cefb8e6e86"
                            },
                            {
                                "reference": "urn:uuid:673f8db5-0ffd-4395-9657-6da00420bbc1"
                            }
                        ]
                    },
                    {
                        "title": "Known allergies",
                        "code": {
                            "coding": [
                                {
                                    "system": "http://loinc.org",
                                    "code": "48765-2",
                                    "display": "Allergies and adverse reactions Document"
                                }
                            ]
                        },
                        "text": {
                            "status": "additional",
                            "div": "<div xmlns=\"http://www.w3.org/1999/xhtml\">\n\n              <table>\n\n                <thead>\n\n                  <tr>\n\n                    <td>Allergen</td>\n\n                    <td>Reaction</td>\n\n                  </tr>\n\n                </thead>\n\n                <tbody>\n\n                  <tr>\n\n                    <td>Doxycycline</td>\n\n                    <td>Hives</td>\n\n                  </tr>\n\n                </tbody>\n\n              </table>\n\n            </div>"
                        },
                        "entry": [
                            {
                                "reference": "urn:uuid:47600e0f-b6b5-4308-84b5-5dec157f7637"
                            }
                        ]
                    }
                ]
            }
        },
        {
            "fullUrl": "urn:uuid:0ece729a-5a9f-412e-ad70-cf8da711098c",
            "resource": {
                "resourceType": "Practitioner",
                "id": "example",
                "meta": {
                    "lastUpdated": "2013-05-05T16:13:03Z"
                },
                "text": {
                    "status": "generated",
                    "div": "<div xmlns=\"http://www.w3.org/1999/xhtml\">\n\n            <p>Dr Adam Careful</p>\n\n          </div>"
                },
                "identifier": [
                    {
                        "system": "http://www.acme.org/practitioners",
                        "value": "23"
                    }
                ],
                "name": [
                    {
                        "family": "Careful",
                        "given": [
                            "Adam"
                        ],
                        "prefix": [
                            "Dr"
                        ]
                    }
                ]
            }
        },
        {
            "fullUrl": "urn:uuid:d546d85-2487-4ae5-a7b2-f7fa79811120",
            "resource": {
                "resourceType": "Patient",
                "id": "d546d85-2487-4ae5-a7b2-f7fa79811120",
                "text": {
                    "status": "generated",
                    "div": "<div xmlns=\"http://www.w3.org/1999/xhtml\">\n\n            <h1>Eve Everywoman</h1>\n\n          </div>"
                },
                "active": true,
                "name": [
                    {
                        "text": "Eve Everywoman",
                        "family": "Everywoman1",
                        "given": [
                            "Eve"
                        ]
                    }
                ],
                "telecom": [
                    {
                        "system": "phone",
                        "value": "555-555-2003",
                        "use": "work"
                    }
                ],
                "gender": "female",
                "birthDate": "1955-01-06",
                "address": [
                    {
                        "use": "home",
                        "line": [
                            "2222 Home Street"
                        ]
                    }
                ]
            }
        },
        {
            "fullUrl": "urn:uuid:a16719d5-5267-4f69-913a-f29e4b800a14",
            "resource": {
                "resourceType": "Encounter",
                "id": "a16719d5-5267-4f69-913a-f29e4b800a14",
                "meta": {
                    "lastUpdated": "2013-05-05T16:13:03Z"
                },
                "text": {
                    "status": "generated",
                    "div": "<div xmlns=\"http://www.w3.org/1999/xhtml\"> Admitted to Orthopedics Service,\n                        Middlemore Hospital between Jan 20 and Feb ist 2013 </div>"
                },
                "identifier": [
                    {
                        "value": "S100"
                    }
                ],
                "status": "finished",
                "class": {
                    "system": "http://terminology.hl7.org/CodeSystem/v3-ActCode",
                    "code": "IMP",
                    "display": "inpatient encounter"
                },
                "type": [
                    {
                        "text": "Orthopedic Admission"
                    }
                ],
                "subject": {
                    "reference": "urn:uuid:d546d85-2487-4ae5-a7b2-f7fa79811120"
                },
                "period": {
                    "start": "2013-01-20T12:30:02Z",
                    "end": "2013-02-01T12:30:02Z"
                },
                "hospitalization": {
                    "dischargeDisposition": {
                        "text": "Discharged to care of GP"
                    }
                }
            }
        },
        {
            "fullUrl": "urn:uuid:541a72a8-df75-4484-ac89-ac4923f03b81",
            "resource": {
                "resourceType": "Observation",
                "meta": {
                    "lastUpdated": "2013-05-05T16:13:03Z"
                },
                "text": {
                    "status": "additional",
                    "div": "<div xmlns=\"http://www.w3.org/1999/xhtml\"> Acute Asthmatic attack. Was wheezing\n                        for days prior to admission. </div>"
                },
                "status": "final",
                "code": {
                    "coding": [
                        {
                            "system": "http://loinc.org",
                            "code": "46241-6"
                        }
                    ],
                    "text": "Reason for admission"
                },
                "subject": {
                    "reference": "urn:uuid:d546d85-2487-4ae5-a7b2-f7fa79811120",
                    "display": "Eve Everywoman"
                },
                "encounter": {
                    "reference": "urn:uuid:a16719d5-5267-4f69-913a-f29e4b800a14"
                },
                "valueString": "Acute Asthmatic attack. Was wheezing for days prior to admission."
            }
        },
        {
            "fullUrl": "urn:uuid:124a6916-5d84-4b8c-b250-10cefb8e6e86",
            "resource": {
                "resourceType": "MedicationRequest",
                "meta": {
                    "lastUpdated": "2013-05-05T16:13:03Z"
                },
                "text": {
                    "status": "generated",
                    "div": "<div xmlns=\"http://www.w3.org/1999/xhtml\">\n\n            <p>Theophylline 200mg twice a day</p>\n\n          </div>"
                },
                "status": "unknown",
                "intent": "order",
                "medicationCodeableConcept": {
                    "coding": [
                        {
                            "system": "http://snomed.info/sct",
                            "code": "66493003"
                        }
                    ],
                    "text": "Theophylline 200mg"
                },
                "subject": {
                    "reference": "urn:uuid:d546d85-2487-4ae5-a7b2-f7fa79811120",
                    "display": "Peter Patient"
                },
                "requester": {
                    "reference": "urn:uuid:0ece729a-5a9f-412e-ad70-cf8da711098c",
                    "display": "Peter Practitioner"
                },
                "reasonCode": [
                    {
                        "text": "Management of Asthma"
                    }
                ],
                "dosageInstruction": [
                    {
                        "additionalInstruction": [
                            {
                                "text": "Take with Food"
                            }
                        ],
                        "timing": {
                            "repeat": {
                                "frequency": 2,
                                "period": 1,
                                "periodUnit": "d"
                            }
                        },
                        "route": {
                            "coding": [
                                {
                                    "system": "http://snomed.info/sct",
                                    "code": "394899003",
                                    "display": "oral administration of treatment"
                                }
                            ]
                        },
                        "doseAndRate": [
                            {
                                "type": {
                                    "coding": [
                                        {
                                            "system": "http://terminology.hl7.org/CodeSystem/dose-rate-type",
                                            "code": "ordered",
                                            "display": "Ordered"
                                        }
                                    ]
                                },
                                "doseQuantity": {
                                    "value": 1,
                                    "unit": "tablet",
                                    "system": "http://unitsofmeasure.org",
                                    "code": "tbl"
                                }
                            }
                        ]
                    }
                ]
            }
        },
        {
            "fullUrl": "urn:uuid:673f8db5-0ffd-4395-9657-6da00420bbc1",
            "resource": {
                "resourceType": "MedicationStatement",
                "text": {
                    "status": "generated",
                    "div": "<div xmlns=\"http://www.w3.org/1999/xhtml\">\n\n            <p>Ventolin inhaler discontinued</p>\n\n          </div>"
                },
                "status": "active",
                "statusReason": [
                    {
                        "text": "Management of Asthma"
                    }
                ],
                "medicationCodeableConcept": {
                    "text": "Ventolin Inhaler"
                },
                "subject": {
                    "reference": "urn:uuid:d546d85-2487-4ae5-a7b2-f7fa79811120",
                    "display": "Peter Patient"
                },
                "dateAsserted": "2013-05-05T16:13:03Z"
            }
        },
        {
            "fullUrl": "urn:uuid:47600e0f-b6b5-4308-84b5-5dec157f7637",
            "resource": {
                "resourceType": "AllergyIntolerance",
                "meta": {
                    "lastUpdated": "2013-05-05T16:13:03Z"
                },
                "text": {
                    "status": "generated",
                    "div": "<div xmlns=\"http://www.w3.org/1999/xhtml\">Sensitivity to Doxycycline :\n                        Hives</div>"
                },
                "clinicalStatus": {
                    "coding": [
                        {
                            "system": "http://terminology.hl7.org/CodeSystem/allergyintolerance-clinical",
                            "code": "active",
                            "display": "Active"
                        }
                    ]
                },
                "verificationStatus": {
                    "coding": [
                        {
                            "system": "http://terminology.hl7.org/CodeSystem/allergyintolerance-verification",
                            "code": "confirmed",
                            "display": "Confirmed"
                        }
                    ]
                },
                "type": "allergy",
                "criticality": "high",
                "code": {
                    "text": "Doxycycline"
                },
                "patient": {
                    "reference": "urn:uuid:d546d85-2487-4ae5-a7b2-f7fa79811120",
                    "display": "Eve Everywoman"
                },
                "recordedDate": "2012-09-17",
                "reaction": [
                    {
                        "manifestation": [
                            {
                                "coding": [
                                    {
                                        "system": "http://example.org/system",
                                        "code": "xxx",
                                        "display": "Hives"
                                    }
                                ],
                                "text": "Hives"
                            }
                        ]
                    }
                ]
            }
        }
    ],
    "signature": {
        "type": [
            {
                "system": "urn:iso-astm:E1762-95:2013",
                "code": "1.2.840.10065.1.12.1.5",
                "display": "Verification Signature"
            }
        ],
        "when": "2021-10-05T22:42:19-07:00",
        "who": {
            "display": "Practitioner/123"
        },
        "onBehalfOf": {
            "display": "Organization/123"
        },
        "data": ""
    }
}